Folder: balcite/Fig S2 (part 2)

File: FigS2_B_XRD_witherite_100mM_CaCl2.csv
Bragg_angle,Intensity
\circ,a.u.
9.87,251
10.08,279
10.29,210
10.5,167
10.71,140
10.92,129
11.13,131
11.34,131
11.55,159
11.76,157
11.97,138
12.18,125
12.39,135
12.6,136
12.81,146
13.02,150
13.23,112
13.44,119
13.65,126
13.86,105
14.07,114
14.28,156
14.49,152
14.7,127
14.91,117
15.12,118
15.33,106
15.54,115
15.75,129
15.96,93
16.17,117
16.38,106
16.59,94
16.8,109
17.01,110
17.22,93
17.43,100
17.64,90
17.85,92
18.06,93
18.27,101
18.48,104
18.69,107
18.9,108
19.11,146
19.32,529
19.53,338
19.74,260
19.95,183
20.16,102
20.37,114
20.58,103
20.79,83
21,78
21.21,87
21.42,110
21.63,94
21.84,95
22.05,95
22.26,85
22.47,69
22.68,111
22.89,90
23.1,98
23.31,133
23.52,262
23.73,1559
23.94,2215
24.15,1537
24.36,404
24.57,143
24.78,108
24.99,110
25.2,100
25.41,87
25.62,90
25.83,88
26.04,74
26.25,79
26.46,91
26.67,74
26.88,65
27.09,74
27.3,85
27.51,135
27.72,368
27.93,77
28.14,74
28.35,72
28.56,78
28.77,77
28.98,105
29.19,425
29.4,387
29.61,118
29.82,85
30.03,77
30.24,66
30.45,74
30.66,79
30.87,78
31.08,95
31.29,67
31.5,57
31.71,66
31.92,58
32.13,62
32.34,86
32.55,98
32.76,89
32.97,79
33.18,123
33.39,149
33.6,439
33.81,552
34.02,1030
34.23,760
34.44,1251
34.65,587
34.86,144
35.07,80
35.28,85
35.49,78
35.7,81
35.91,155
36.12,73
36.33,72
36.54,62
36.75,58
36.96,64
37.17,62
37.38,63
37.59,70
37.8,92
38.01,73
38.22,65
38.43,71
38.64,67
38.85,79
39.06,78
39.27,224
39.48,435
39.69,137
39.9,108
40.11,104
40.32,140
40.53,129
40.74,68
40.95,66
41.16,87
41.37,74
41.58,109
41.79,456
42,1083
42.21,296
42.42,202
42.63,249
42.84,472
43.05,316
43.26,112
43.47,77
43.68,70
43.89,100
44.1,317
44.31,266
44.52,270
44.73,577
44.94,486
45.15,97
45.36,65
45.57,50
45.78,69
45.99,86
46.2,69
46.41,102
46.62,257
46.83,600
47.04,241
47.25,155
47.46,70
47.67,58
47.88,83
48.09,81
48.3,101
48.51,93
48.72,85
48.93,140
49.14,84
49.35,65
49.56,78
49.77,100
49.98,64
50.19,61
50.4,47
50.61,64
50.82,46
51.03,50
51.24,47
51.45,46
51.66,45
51.87,45
52.08,49
52.29,57
52.5,72
52.71,101
52.92,91
53.13,58
53.34,72
53.55,123
53.76,98
53.97,95
54.18,114
54.39,139
54.6,224
54.81,216
55.02,147
55.23,121
55.44,198
55.65,340
55.86,178
56.07,228
56.28,230
56.49,102
56.7,76
56.91,48
57.12,83
57.33,101
57.54,58
57.75,59
57.96,64
58.17,37
58.38,61
58.59,55
58.8,60
59.01,158
59.22,104
59.43,61
59.64,77
59.85,81
60.06,70
60.27,73
60.48,132
60.69,188
60.9,260
61.11,207
61.32,153
61.53,122
61.74,98
61.95,92
62.16,97
62.37,112
62.58,101
62.79,65
63,38
63.21,50
63.42,33
63.63,38
63.84,44
64.05,36
64.26,37
64.47,62
64.68,43
64.89,54
65.1,36
65.31,32
65.52,42
65.73,36
65.94,45
66.15,44
66.36,50
66.57,33
66.78,42
66.99,42
67.2,55
67.41,37
67.62,57
67.83,76
68.04,283
68.25,245
68.46,173
68.67,158
68.88,89
69.09,72
69.3,93
69.51,176
69.72,199
69.87,147

File: FigS2_C_XRD_ACBC_x06.csv
Bragg_angle,Intensity
\circ,a.u.
5,290
5.3,248
5.6,270
5.9,259
6.2,268
6.5,271
6.8,235
7.1,207
7.4,193
7.7,213
8,176
8.3,175
8.6,182
8.9,232
9.2,253
9.5,309
9.8,362
10.1,304
10.4,276
10.7,186
11,172
11.3,154
11.6,153
11.9,143
12.2,149
12.5,173
12.8,153
13.1,164
13.4,134
13.7,118
14,113
14.3,134
14.6,154
14.9,141
15.2,132
15.5,139
15.8,138
16.1,132
16.4,150
16.7,131
17,138
17.3,128
17.6,125
17.9,128
18.2,120
18.5,121
18.8,109
19.1,131
19.4,107
19.7,87
20,105
20.3,117
20.6,109
20.9,174
21.2,355
21.5,104
21.8,130
22.1,109
22.4,134
22.7,135
23,240
23.3,211
23.6,112
23.9,107
24.2,137
24.5,146
24.8,290
25.1,722
25.4,180
25.7,148
26,128
26.3,115
26.6,183
26.9,260
27.2,1115
27.5,405
27.8,142
28.1,142
28.4,144
28.7,151
29,185
29.3,1285
29.6,1174
29.9,161
30.2,129
30.5,137
30.8,137
31.1,122
31.4,134
31.7,123
32,129
32.3,150
32.6,277
32.9,1066
33.2,415
33.5,170
33.8,135
34.1,106
34.4,108
34.7,118
35,101
35.3,108
35.6,140
35.9,179
36.2,313
36.5,103
36.8,101
37.1,89
37.4,82
37.7,86
38,95
38.3,108
38.6,115
38.9,152
39.2,188
39.5,664
39.8,137
40.1,147
40.4,124
40.7,111
41,122
41.3,104
41.6,108
41.9,115
42.2,113
42.5,112
42.8,209
43.1,343
43.4,327
43.7,278
44,618
44.3,256
44.6,139
44.9,115
45.2,99
45.5,112
45.8,98
46.1,95
46.4,96
46.7,108
47,218
47.3,369
47.6,249
47.9,124
48.2,211
48.5,589
48.8,138
49.1,230
49.4,223
49.7,152
50,340
50.3,529
50.6,163
50.9,96
51.2,119
51.5,92
51.8,71
52.1,71
52.4,84
52.7,72
53,65
53.3,68
53.6,61
53.9,66
54.2,86
54.5,68
54.8,75
55.1,87
55.4,101
55.7,164
56,237
56.3,118
56.6,165
56.9,99
57.2,138
57.5,330
57.8,102
58.1,71
58.4,57
58.7,59
59,51
59.3,71
59.6,67
59.9,81
60.2,79
60.5,142
60.8,196
61.1,116
61.4,102
61.7,63
62,51
62.3,56
62.6,69
62.9,111
63.2,111
63.5,69
63.8,54
64.1,45
64.4,80
64.7,205
65,89
65.3,77
65.6,70
65.9,53
66.2,55
66.5,52
66.8,47
67.1,57
67.4,57
67.7,69
68,65
68.3,74
68.6,87
68.9,96
69.2,81
69.5,81
69.8,76
70.1,89
70.4,62
70.7,84
71,64
71.3,60
71.6,72
71.9,118
72.2,111
72.5,84
72.8,98
73.1,91
73.4,108
73.7,145
74,103
74.3,60
74.6,52
74.9,48
75.2,55
75.5,53
75.8,50
76.1,74
76.4,73
76.7,83
77,63
77.3,50
77.6,51
77.9,39
78.2,64
78.5,54
78.8,64
79.1,48
79.4,50
79.7,45
80,41

File: FigS2_C_XRD_ACBC_x13.csv
Bragg_angle,Intensity
\circ,a.u.
4.87,275
5.17,294
5.47,241
5.77,256
6.07,273
6.37,272
6.67,253
6.97,203
7.27,194
7.57,224
7.87,181
8.17,184
8.47,186
8.77,232
9.07,296
9.37,361
9.67,339
9.97,332
10.27,282
10.57,202
10.87,165
11.17,147
11.47,129
11.77,156
12.07,139
12.37,141
12.67,162
12.97,161
13.27,156
13.57,156
13.87,137
14.17,141
14.47,158
14.77,151
15.07,156
15.37,156
15.67,164
15.97,170
16.27,182
16.57,156
16.87,162
17.17,146
17.47,130
17.77,110
18.07,118
18.37,113
18.67,133
18.97,115
19.27,121
19.57,132
19.87,117
20.17,145
20.47,113
20.77,137
21.07,133
21.37,126
21.67,126
21.97,125
22.27,137
22.57,149
22.87,703
23.17,112
23.47,125
23.77,113
24.07,102
24.37,112
24.67,169
24.97,193
25.27,121
25.57,105
25.87,119
26.17,138
26.47,118
26.77,147
27.07,235
27.37,134
27.67,111
27.97,129
28.27,148
28.57,164
28.87,556
29.17,2528
29.47,155
29.77,119
30.07,105
30.37,104
30.67,99
30.97,121
31.27,82
31.57,89
31.87,87
32.17,98
32.47,145
32.77,277
33.07,122
33.37,93
33.67,103
33.97,93
34.27,97
34.57,102
34.87,85
35.17,107
35.47,99
35.77,533
36.07,131
36.37,95
36.67,83
36.97,83
37.27,73
37.57,86
37.87,109
38.17,89
38.47,92
38.77,111
39.07,250
39.37,163
39.67,114
39.97,100
40.27,86
40.57,99
40.87,100
41.17,93
41.47,87
41.77,87
42.07,111
42.37,104
42.67,180
42.97,545
43.27,123
43.57,153
43.87,173
44.17,100
44.47,111
44.77,94
45.07,76
45.37,79
45.67,97
45.97,88
46.27,124
46.57,255
46.87,779
47.17,218
47.47,118
47.77,162
48.07,560
48.37,171
48.67,105
48.97,100
49.27,79
49.57,89
49.87,158
50.17,129
50.47,80
50.77,67
51.07,68
51.37,66
51.67,57
51.97,56
52.27,60
52.57,58
52.87,61
53.17,57
53.47,43
53.77,51
54.07,61
54.37,56
54.67,65
54.97,62
55.27,80
55.57,93
55.87,82
56.17,72
56.47,67
56.77,85
57.07,322
57.37,130
57.67,52
57.97,49
58.27,44
58.57,48
58.87,71
59.17,58
59.47,64
59.77,58
60.07,100
60.37,234
60.67,109
60.97,67
61.27,52
61.57,57
61.87,56
62.17,57
62.47,85
62.77,71
63.07,65
63.37,52
63.67,58
63.97,74
64.27,202
64.57,117
64.87,63
65.17,62
65.47,51
65.77,60
66.07,39
66.37,47
66.67,61
66.97,45
67.27,46
67.57,50
67.87,37
68.17,65
68.47,69
68.77,81
69.07,69
69.37,97
69.67,61
69.97,45
70.27,55
70.57,59
70.87,54
71.17,61
71.47,83
71.77,66
72.07,137
72.37,89
72.67,57
72.97,88
73.27,89
73.57,69
73.87,54
74.17,59
74.47,54
74.77,44
75.07,52
75.37,53
75.67,95
75.97,124
76.27,58
76.57,49
76.87,36
77.17,35
77.47,43
77.77,46
78.07,41
78.37,40
78.67,48
78.97,45
79.27,36
79.57,42
79.87,43

File: FigS2_C_XRD_ACBC_x25.csv
Bragg_angle,Intensity
\circ,a.u.
5,364
5.3,351
5.6,304
5.9,327
6.2,279
6.5,323
6.8,279
7.1,224
7.4,219
7.7,222
8,243
8.3,227
8.6,205
8.9,220
9.2,269
9.5,318
9.8,325
10.1,307
10.4,276
10.7,201
11,205
11.3,181
11.6,178
11.9,168
12.2,170
12.5,157
12.8,181
13.1,167
13.4,163
13.7,204
14,179
14.3,167
14.6,169
14.9,184
15.2,201
15.5,211
15.8,159
16.1,174
16.4,190
16.7,157
17,174
17.3,161
17.6,180
17.9,171
18.2,161
18.5,168
18.8,169
19.1,156
19.4,163
19.7,158
20,145
20.3,173
20.6,177
20.9,172
21.2,216
21.5,179
21.8,172
22.1,199
22.4,307
22.7,701
23,510
23.3,217
23.6,157
23.9,156
24.2,158
24.5,186
24.8,199
25.1,257
25.4,174
25.7,159
26,159
26.3,141
26.6,166
26.9,236
27.2,398
27.5,211
27.8,197
28.1,252
28.4,565
28.7,1233
29,2017
29.3,365
29.6,192
29.9,164
30.2,158
30.5,156
30.8,134
31.1,122
31.4,148
31.7,133
32,117
32.3,142
32.6,212
32.9,482
33.2,183
33.5,123
33.8,131
34.1,137
34.4,144
34.7,140
35,167
35.3,297
35.6,500
35.9,344
36.2,191
36.5,149
36.8,148
37.1,146
37.4,142
37.7,140
38,144
38.3,130
38.6,151
38.9,151
39.2,194
39.5,161
39.8,134
40.1,177
40.4,151
40.7,171
41,151
41.3,135
41.6,152
41.9,186
42.2,218
42.5,378
42.8,538
43.1,248
43.4,166
43.7,206
44,308
44.3,170
44.6,154
44.9,156
45.2,186
45.5,183
45.8,230
46.1,367
46.4,529
46.7,312
47,271
47.3,301
47.6,417
47.9,298
48.2,141
48.5,137
48.8,146
49.1,195
49.4,143
49.7,122
50,236
50.3,238
50.6,104
50.9,106
51.2,97
51.5,96
51.8,102
52.1,87
52.4,83
52.7,81
53,87
53.3,69
53.6,74
53.9,91
54.2,95
54.5,73
54.8,89
55.1,106
55.4,112
55.7,143
56,161
56.3,171
56.6,210
56.9,187
57.2,120
57.5,96
57.8,85
58.1,98
58.4,89
58.7,79
59,99
59.3,126
59.6,175
59.9,206
60.2,153
60.5,94
60.8,100
61.1,95
61.4,70
61.7,96
62,90
62.3,79
62.6,102
62.9,104
63.2,110
63.5,118
63.8,132
64.1,124
64.4,110
64.7,96
65,91
65.3,87
65.6,94
65.9,89
66.2,83
66.5,73
66.8,65
67.1,90
67.4,75
67.7,70
68,115
68.3,115
68.6,96
68.9,104
69.2,73
69.5,86
69.8,92
70.1,87
70.4,71
70.7,122
71,100
71.3,119
71.6,150
71.9,139
72.2,118
72.5,100
72.8,109
73.1,105
73.4,97
73.7,100
74,102
74.3,90
74.6,105
74.9,109
75.2,120
75.5,103
75.8,87
76.1,92
76.4,87
76.7,74
77,65
77.3,61
77.6,81
77.9,71
78.2,83
78.5,65
78.8,69
79.1,75
79.4,86
79.7,111
80,84

File: FigS2_C_XRD_ACBC_x37.csv
Bragg_angle,Intensity
\circ,a.u.
5,361
5.3,343
5.6,329
5.9,300
6.2,344
6.5,314
6.8,321
7.1,259
7.4,284
7.7,283
8,277
8.3,241
8.6,262
8.9,260
9.2,369
9.5,447
9.8,450
10.1,455
10.4,353
10.7,241
11,231
11.3,216
11.6,226
11.9,209
12.2,216
12.5,205
12.8,197
13.1,194
13.4,211
13.7,178
14,200
14.3,210
14.6,199
14.9,196
15.2,204
15.5,215
15.8,207
16.1,214
16.4,196
16.7,211
17,169
17.3,198
17.6,151
17.9,191
18.2,195
18.5,166
18.8,175
19.1,171
19.4,204
19.7,188
20,187
20.3,216
20.6,197
20.9,183
21.2,177
21.5,207
21.8,197
22.1,291
22.4,577
22.7,1212
23,385
23.3,247
23.6,181
23.9,154
24.2,179
24.5,196
24.8,211
25.1,183
25.4,171
25.7,164
26,210
26.3,170
26.6,169
26.9,193
27.2,226
27.5,209
27.8,248
28.1,350
28.4,953
28.7,3125
29,806
29.3,271
29.6,218
29.9,178
30.2,193
30.5,195
30.8,155
31.1,142
31.4,175
31.7,159
32,130
32.3,140
32.6,138
32.9,183
33.2,147
33.5,149
33.8,144
34.1,171
34.4,159
34.7,177
35,222
35.3,568
35.6,609
35.9,268
36.2,198
36.5,161
36.8,186
37.1,176
37.4,157
37.7,154
38,152
38.3,171
38.6,147
38.9,172
39.2,172
39.5,168
39.8,147
40.1,153
40.4,170
40.7,183
41,161
41.3,168
41.6,184
41.9,232
42.2,393
42.5,729
42.8,341
43.1,201
43.4,189
43.7,188
44,181
44.3,179
44.6,170
44.9,200
45.2,207
45.5,294
45.8,504
46.1,660
46.4,448
46.7,306
47,341
47.3,540
47.6,363
47.9,165
48.2,162
48.5,132
48.8,123
49.1,140
49.4,121
49.7,116
50,125
50.3,126
50.6,115
50.9,101
51.2,91
51.5,100
51.8,92
52.1,76
52.4,94
52.7,87
53,88
53.3,86
53.6,76
53.9,76
54.2,88
54.5,94
54.8,81
55.1,90
55.4,126
55.7,150
56,186
56.3,244
56.6,247
56.9,154
57.2,110
57.5,121
57.8,88
58.1,88
58.4,115
58.7,115
59,125
59.3,233
59.6,248
59.9,163
60.2,131
60.5,117
60.8,102
61.1,105
61.4,98
61.7,103
62,84
62.3,116
62.6,124
62.9,140
63.2,141
63.5,138
63.8,135
64.1,130
64.4,131
64.7,105
65,103
65.3,103
65.6,107
65.9,117
66.2,95
66.5,112
66.8,110
67.1,91
67.4,98
67.7,107
68,110
68.3,120
68.6,95
68.9,94
69.2,97
69.5,108
69.8,114
70.1,117
70.4,126
70.7,138
71,143
71.3,133
71.6,134
71.9,155
72.2,137
72.5,133
72.8,129
73.1,96
73.4,102
73.7,113
74,117
74.3,114
74.6,156
74.9,124
75.2,129
75.5,95
75.8,70
76.1,98
76.4,79
76.7,88
77,86
77.3,88
77.6,90
77.9,89
78.2,92
78.5,94
78.8,86
79.1,116
79.4,111
79.7,108
80,86

File: FigS2_C_XRD_ACBC_x42.csv
Bragg_angle,Intensity
\circ,a.u.
5,310
5.3,310
5.6,223
5.9,241
6.2,276
6.5,287
6.8,284
7.1,210
7.4,217
7.7,210
8,239
8.3,197
8.6,190
8.9,184
9.2,214
9.5,270
9.8,295
10.1,286
10.4,243
10.7,203
11,194
11.3,177
11.6,171
11.9,169
12.2,208
12.5,191
12.8,170
13.1,170
13.4,186
13.7,170
14,198
14.3,191
14.6,163
14.9,169
15.2,198
15.5,196
15.8,191
16.1,189
16.4,195
16.7,151
17,182
17.3,188
17.6,171
17.9,198
18.2,190
18.5,179
18.8,181
19.1,197
19.4,199
19.7,188
20,192
20.3,201
20.6,175
20.9,159
21.2,194
21.5,191
21.8,235
22.1,293
22.4,649
22.7,1085
23,320
23.3,219
23.6,193
23.9,186
24.2,177
24.5,172
24.8,185
25.1,182
25.4,158
25.7,201
26,210
26.3,165
26.6,177
26.9,170
27.2,168
27.5,215
27.8,267
28.1,463
28.4,1709
28.7,1965
29,525
29.3,239
29.6,184
29.9,177
30.2,213
30.5,171
30.8,134
31.1,134
31.4,135
31.7,118
32,128
32.3,147
32.6,145
32.9,151
33.2,135
33.5,123
33.8,134
34.1,159
34.4,172
34.7,175
35,296
35.3,679
35.6,492
35.9,226
36.2,187
36.5,195
36.8,145
37.1,161
37.4,186
37.7,140
38,161
38.3,148
38.6,159
38.9,149
39.2,134
39.5,172
39.8,143
40.1,163
40.4,169
40.7,156
41,162
41.3,173
41.6,194
41.9,270
42.2,552
42.5,509
42.8,249
43.1,205
43.4,172
43.7,180
44,186
44.3,177
44.6,184
44.9,215
45.2,297
45.5,486
45.8,551
46.1,444
46.4,292
46.7,306
47,572
47.3,392
47.6,205
47.9,171
48.2,160
48.5,127
48.8,113
49.1,137
49.4,119
49.7,115
50,109
50.3,104
50.6,99
50.9,102
51.2,105
51.5,88
51.8,103
52.1,89
52.4,96
52.7,96
53,89
53.3,100
53.6,97
53.9,99
54.2,79
54.5,106
54.8,94
55.1,111
55.4,142
55.7,187
56,210
56.3,264
56.6,184
56.9,114
57.2,111
57.5,92
57.8,108
58.1,107
58.4,122
58.7,143
59,205
59.3,226
59.6,178
59.9,99
60.2,87
60.5,92
60.8,104
61.1,126
61.4,99
61.7,94
62,103
62.3,102
62.6,131
62.9,112
63.2,134
63.5,142
63.8,105
64.1,113
64.4,109
64.7,103
65,116
65.3,96
65.6,86
65.9,97
66.2,87
66.5,116
66.8,99
67.1,94
67.4,126
67.7,119
68,96
68.3,95
68.6,100
68.9,99
69.2,103
69.5,103
69.8,108
70.1,98
70.4,151
70.7,163
71,155
71.3,150
71.6,179
71.9,107
72.2,111
72.5,116
72.8,108
73.1,106
73.4,111
73.7,125
74,119
74.3,136
74.6,129
74.9,132
75.2,96
75.5,97
75.8,88
76.1,73
76.4,83
76.7,71
77,86
77.3,81
77.6,86
77.9,97
78.2,118
78.5,116
78.8,104
79.1,113
79.4,97
79.7,100
80,91

File: FigS2_XRD_vaterite_ref.csv
Bragg_angle,Intensity
\circ,a.u.
0,0
0.2675,0
0.535,0
0.8025,0
1.07,0
1.3375,0
1.605,0
1.8725,0
2.14,0
2.4075,0
2.675,0
2.9425,0
3.21,0
3.4775,0
3.745,0
4.0125,0
4.28,0
4.5475,0
4.815,0
5.0825,0
5.35,0
5.6175,0
5.885,0
6.1525,0
6.42,0
6.6875,0
6.955,0
7.2225,0
7.49,0
7.7575,0
8.025,0
8.2925,0
8.56,0
8.8275,0
9.095,0
9.3625,0
9.63,0
9.8975,0
10.165,0
10.4325,0
10.7,0
10.9675,0
11.235,0
11.5025,0
11.77,0
12.0375,0
12.305,0
12.5725,0
12.84,0
13.1075,0
13.375,0
13.6425,0
13.91,1.1748e-05
14.1775,1.7867e-07
14.445,1.5975
14.7125,0
14.98,0
15.2475,0
15.515,3.1108e-05
15.7825,0.0012432
16.05,0
16.3175,0
16.585,0
16.8525,0
17.12,0
17.3875,2.0605e-05
17.655,0.00010122
17.9225,0
18.19,0
18.4575,0
18.725,0
18.9925,0
19.26,0
19.5275,0
19.795,0.5761
20.0625,6.2646e-06
20.33,0
20.5975,0
20.865,0.00089423
21.1325,1.4808
21.4,0
21.6675,0
21.935,0
22.2025,0
22.47,2.7846
22.7375,4.2253e-07
23.005,0
23.2725,0
23.54,0
23.8075,0
24.075,0
24.3425,24.523
24.61,0.46957
24.8775,8.8525e-07
25.145,1.084e-08
25.4125,0.36504
25.68,0
25.9475,0
26.215,0
26.4825,0.6037
26.75,0.84955
27.0175,0
27.285,0
27.5525,0
27.82,0
28.0875,0.0030801
28.355,1.287
28.6225,0.00020457
28.89,8.278e-09
29.1575,0.069942
29.425,0
29.6925,0
29.96,1.5753e-07
30.2275,0.35637
30.495,0
30.7625,0
31.03,0
31.2975,0
31.565,3.0459
31.8325,0.0011886
32.1,0
32.3675,20.885
32.635,0.0019552
32.9025,0
33.17,0
33.4375,8.4059
33.705,0
33.9725,0
34.24,0
34.5075,0
34.775,0.0061425
35.0425,0.04075
35.31,2.5974e-05
35.5775,0.033692
35.845,0
36.1125,0
36.38,0
36.6475,0
36.915,0
37.1825,0
37.45,5.797e-05
37.7175,1.085
37.985,0.0099659
38.2525,1.1781
38.52,0.0021109
38.7875,0
39.055,0.0010141
39.3225,0.0065668
39.59,0
39.8575,0
40.125,6.6316e-05
40.3925,8.2514
40.66,0.00085915
40.9275,0
41.195,0
41.4625,0
41.73,1.2802
41.9975,0.0005463
42.265,0
42.5325,0
42.8,3.6363
43.0675,2.9118
43.335,2.5633e-06
43.6025,0.24494
43.87,0
44.1375,1.6963e-06
44.405,0.0048037
44.6725,0
44.94,0
45.2075,7.2533e-05
45.475,1.1226
45.7425,8.4899e-05
46.01,0.15715
46.2775,0
46.545,0.053627
46.8125,0.02935
47.08,0
47.3475,0
47.615,0.021659
47.8825,2.0473e-05
48.15,0.093917
48.4175,0.27907
48.685,1.3297e-09
48.9525,0.50889
49.22,0
49.4875,0
49.755,0.020064
50.0225,7.8058
50.29,0.00051545
50.5575,0.37143
50.825,0
51.0925,0.0033699
51.36,0.020675
51.6275,0
51.895,4.2651e-08
52.1625,0.063103
52.43,0.077759
52.6975,2.6707
52.965,3.753e-08
53.2325,0.018769
53.5,0.068661
53.7675,0
54.035,0
54.3025,3.1268
54.57,3.4439e-06
54.8375,23.975
55.105,0
55.3725,2.1914
55.64,0.0028359
55.9075,0
56.175,2.1055e-08
56.4425,0.40024
56.71,0.01042
56.9775,0.021771
57.245,0
57.5125,0
57.78,0
58.0475,0
58.315,0.42526
58.5825,5.7476
58.85,1.1703
59.1175,2.5388e-05
59.385,0.0010758
59.6525,0.0091159
59.92,0
60.1875,0.010642
60.455,2.3305
60.7225,4.8487e-07
60.99,0
61.2575,0.00089383
61.525,0.16813
61.7925,0
62.06,9.6315e-06
62.3275,2.9042
62.595,0.00031235
62.8625,0.074792
63.13,0
63.3975,0
63.665,0
63.9325,1.7186e-07
64.2,0.092109
64.4675,0.11868
64.735,1.4226
65.0025,4.0009e-08
65.27,1.1952
65.5375,3.736e-07
65.805,3.0604e-06
66.0725,1.0041
66.34,0.0053358
66.6075,0.00030368
66.875,1.9234e-08
67.1425,1.702
67.41,1.1262e-07
67.6775,5.0117e-07
67.945,8.5485
68.2125,0.0053694
68.48,0.23335
68.7475,0
69.015,3.4147
69.2825,0
69.55,9.3355e-07
69.8175,1.3331
70.085,0.00019966
70.3525,0.00015598
70.62,0.00027655
70.8875,0.1778
71.155,0
71.4225,0.012176
71.69,0.13433
71.9575,8.7356
72.225,0.0051232
72.4925,0.50899
72.76,3.4476e-06
73.0275,0
73.295,1.8069e-05
73.5625,0.36689
73.83,0.00026354
74.0975,0
74.365,0
74.6325,0
74.9,9.4798e-06
75.1675,0.49715
75.435,0.011132
75.7025,0.029412
75.97,0.05537
76.2375,0.10867
76.505,0
76.7725,0.20235
77.04,0.183
77.3075,0
77.575,1.888e-06
77.8425,2.3811
78.11,7.035e-06
78.3775,0
78.645,1.8244
78.9125,0.021643
79.18,0.033258
79.4475,3.2454e-06
79.715,0.26479
79.9825,0
80,0

File: FigS2_XRD_witherite_ref.csv
Bragg_angle,Intensity
\circ,a.u.
5,566
5.3,625
5.6,554
5.9,503
6.2,526
6.5,491
6.8,469
7.1,526
7.4,538
7.7,500
8,499
8.3,473
8.6,523
8.9,527
9.2,526
9.5,585
9.8,552
10.1,543
10.4,563
10.7,493
11,512
11.3,472
11.6,501
11.9,523
12.2,477
12.5,506
12.8,465
13.1,480
13.4,432
13.7,519
14,432
14.3,460
14.6,428
14.9,418
15.2,450
15.5,374
15.8,413
16.1,336
16.4,377
16.7,374
17,385
17.3,355
17.6,344
17.9,330
18.2,383
18.5,362
18.8,388
19.1,380
19.4,1224
19.7,427
20,610
20.3,376
20.6,321
20.9,285
21.2,295
21.5,386
21.8,304
22.1,314
22.4,287
22.7,358
23,336
23.3,363
23.6,681
23.9,6936
24.2,2756
24.5,498
24.8,370
25.1,340
25.4,304
25.7,361
26,325
26.3,303
26.6,332
26.9,302
27.2,309
27.5,381
27.8,1122
28.1,290
28.4,488
28.7,348
29,276
29.3,319
29.6,675
29.9,257
30.2,240
30.5,263
30.8,231
31.1,227
31.4,232
31.7,257
32,215
32.3,271
32.6,363
32.9,266
33.2,271
33.5,312
33.8,707
34.1,2399
34.4,2284
34.7,1055
35,241
35.3,206
35.6,218
35.9,174
36.2,199
36.5,209
36.8,183
37.1,178
37.4,220
37.7,183
38,204
38.3,197
38.6,226
38.9,204
39.2,239
39.5,713
39.8,215
40.1,193
40.4,257
40.7,273
41,206
41.3,177
41.6,213
41.9,777
42.2,476
42.5,261
42.8,327
43.1,772
43.4,196
43.7,209
44,333
44.3,816
44.6,303
44.9,1822
45.2,275
45.5,184
45.8,169
46.1,192
46.4,195
46.7,836
47,1386
47.3,243
47.6,177
47.9,187
48.2,169
48.5,178
48.8,199
49.1,239
49.4,166
49.7,256
50,205
50.3,156
50.6,142
50.9,149
51.2,132
51.5,144
51.8,130
52.1,173
52.4,137
52.7,212
53,144
53.3,182
53.6,170
53.9,166
54.2,161
54.5,212
54.8,411
55.1,178
55.4,160
55.7,538
56,206
56.3,487
56.6,181
56.9,140
57.2,238
57.5,176
57.8,178
58.1,161
58.4,174
58.7,135
59,201
59.3,260
59.6,126
59.9,277
60.2,167
60.5,216
60.8,370
61.1,578
61.4,424
61.7,218
62,200
62.3,224
62.6,278
62.9,156
63.2,131
63.5,136
63.8,111
64.1,128
64.4,150
64.7,118
65,111
65.3,153
65.6,127
65.9,118
66.2,124
66.5,124
66.8,105
67.1,134
67.4,127
67.7,142
68,208
68.3,429
68.6,414
68.9,409
69.2,164
69.5,224
69.8,342
70.1,168
70.4,233
70.7,373
71,434
71.3,273
71.6,145
71.9,162
72.2,114
72.5,188
72.8,153
73.1,233
73.4,143
73.7,119
74,110
74.3,119
74.6,106
74.9,120
75.2,106
75.5,116
75.8,133
76.1,166
76.4,175
76.7,182
77,349
77.3,298
77.6,240
77.9,151
78.2,143
78.5,142
78.8,305
79.1,175
79.4,109
79.7,165
80,195
80.3,119
80.6,125
80.9,105
81.2,147
81.5,216
81.8,176
82.1,114
82.4,178
82.7,152
83,146
83.3,118
83.6,123
83.9,124
84.2,97
84.5,90
84.8,105
85.1,110
85.4,98
85.7,109
86,118
86.3,109
86.6,227
86.9,387
87.2,236
87.5,173
87.8,146
88.1,133
88.4,322
88.7,286
89,129
89.3,155
89.6,217
89.9,186
90,171