Folder: balcite/Fig 2

File: Fig2_XRD_balcite_3mo.csv
Bragg_angle,Intensity
\circ,a.u.
10,90
10.21,86
10.42,79
10.63,62
10.84,77
11.05,71
11.26,78
11.47,69
11.68,73
11.89,59
12.1,72
12.31,72
12.52,76
12.73,84
12.94,60
13.15,69
13.36,76
13.57,63
13.78,86
13.99,58
14.2,63
14.41,67
14.62,65
14.83,71
15.04,79
15.25,71
15.46,74
15.67,61
15.88,66
16.09,70
16.3,66
16.51,60
16.72,63
16.93,63
17.14,62
17.35,54
17.56,54
17.77,64
17.98,61
18.19,56
18.4,56
18.61,57
18.82,62
19.03,60
19.24,64
19.45,76
19.66,133
19.87,84
20.08,94
20.29,69
20.5,57
20.71,63
20.92,55
21.13,58
21.34,75
21.55,61
21.76,81
21.97,80
22.18,143
22.39,754
22.6,208
22.81,105
23.02,95
23.23,73
23.44,90
23.65,100
23.86,158
24.07,714
24.28,383
24.49,526
24.7,89
24.91,78
25.12,61
25.33,60
25.54,69
25.75,56
25.96,58
26.17,61
26.38,53
26.59,61
26.8,58
27.01,62
27.22,50
27.43,63
27.64,74
27.85,144
28.06,244
28.27,1218
28.48,482
28.69,238
28.9,111
29.11,164
29.32,195
29.53,95
29.74,101
29.95,83
30.16,49
30.37,49
30.58,41
30.79,49
31,52
31.21,65
31.42,50
31.63,57
31.84,53
32.05,45
32.26,45
32.47,57
32.68,53
32.89,49
33.1,53
33.31,64
33.52,88
33.73,68
33.94,116
34.15,126
34.36,184
34.57,241
34.78,254
34.99,233
35.2,286
35.41,115
35.62,91
35.83,110
36.04,65
36.25,64
36.46,52
36.67,46
36.88,55
37.09,44
37.3,42
37.51,54
37.72,57
37.93,47
38.14,67
38.35,57
38.56,54
38.77,40
38.98,63
39.19,57
39.4,69
39.61,61
39.82,75
40.03,73
40.24,59
40.45,70
40.66,62
40.87,66
41.08,64
41.29,76
41.5,70
41.71,92
41.92,182
42.13,315
42.34,241
42.55,135
42.76,95
42.97,141
43.18,121
43.39,91
43.6,66
43.81,58
44.02,66
44.23,66
44.44,97
44.65,110
44.86,127
45.07,234
45.28,256
45.49,158
45.7,202
45.91,131
46.12,90
46.33,97
46.54,155
46.75,256
46.96,192
47.17,242
47.38,169
47.59,115
47.8,81
48.01,65
48.22,84
48.43,49
48.64,47
48.85,44
49.06,41
49.27,43
49.48,36
49.69,50
49.9,52
50.11,58
50.32,47
50.53,26
50.74,42
50.95,34
51.16,24
51.37,26
51.58,26
51.79,35
52,42
52.21,37
52.42,34
52.63,32
52.84,36
53.05,40
53.26,25
53.47,38
53.68,35
53.89,39
54.1,44
54.31,34
54.52,40
54.73,37
54.94,59
55.15,65
55.36,65
55.57,68
55.78,92
55.99,124
56.2,98
56.41,72
56.62,61
56.83,59
57.04,53
57.25,50
57.46,41
57.67,45
57.88,38
58.09,44
58.3,48
58.51,57
58.72,66
58.93,103
59.14,61
59.35,69
59.56,56
59.77,60
59.98,48
60.19,36
60.4,48
60.61,44
60.82,48
61.03,46
61.24,43
61.45,51
61.66,60
61.87,55
62.08,62
62.29,54
62.5,50
62.71,42
62.92,67
63.13,69
63.34,51
63.55,45
63.76,42
63.97,35
64.18,34
64.39,52
64.6,39
64.81,45
65.02,56
65.23,48
65.44,35
65.65,41
65.86,46
66.07,33
66.28,31
66.49,37
66.7,42
66.91,40
67.12,47
67.33,40
67.54,42
67.75,41
67.96,41
68.17,36
68.38,49
68.59,74
68.8,62
69.01,59
69.22,51
69.43,62
69.64,52
69.85,56
70.06,73
70.27,79
70.36,61

File: Fig2_XRD_balcite_7mo.csv
Bragg_angle,Intensity
\circ,a.u.
10,4366
10.25,4350
10.5,4170
10.75,4041
11,4090
11.25,4040
11.5,3790
11.75,3840
12,3822
12.25,3650
12.5,3550
12.75,3609
13,3484
13.25,3348
13.5,3293
13.75,3117
14,3038
14.25,3116
14.5,2965
14.75,2973
15,2876
15.25,2843
15.5,2898
15.75,2683
16,2701
16.25,2704
16.5,2675
16.75,2554
17,2540
17.25,2435
17.5,2457
17.75,2340
18,2351
18.25,2360
18.5,2203
18.75,2304
19,2168
19.25,2213
19.5,2877
19.75,2606
20,2604
20.25,2154
20.5,1980
20.75,2002
21,2013
21.25,1922
21.5,1962
21.75,2008
22,2006
22.25,2560
22.5,3531
22.75,2228
23,2432
23.25,2036
23.5,2164
23.75,3038
24,10994
24.25,9494
24.5,9687
24.75,2005
25,1697
25.25,1547
25.5,1561
25.75,1491
26,1366
26.25,1358
26.5,1313
26.75,1267
27,1327
27.25,1258
27.5,1332
27.75,1901
28,2827
28.25,3633
28.5,4691
28.75,2574
29,1924
29.25,6059
29.5,1643
29.75,1720
30,1318
30.25,1105
30.5,1097
30.75,1007
31,1186
31.25,1376
31.5,1174
31.75,1135
32,1091
32.25,1067
32.5,1017
32.75,1136
33,1035
33.25,1101
33.5,1279
33.75,1513
34,2371
34.25,3294
34.5,4161
34.75,4714
35,2371
35.25,1979
35.5,1357
35.75,1089
36,1027
36.25,900
36.5,803
36.75,830
37,741
37.25,839
37.5,820
37.75,856
38,862
38.25,832
38.5,765
38.75,825
39,865
39.25,1043
39.5,1007
39.75,1412
40,990
40.25,782
40.5,949
40.75,1095
41,845
41.25,886
41.5,915
41.75,1189
42,2106
42.25,3997
42.5,2541
42.75,1501
43,2015
43.25,2535
43.5,1071
43.75,866
44,916
44.25,1197
44.5,1679
44.75,1662
45,2286
45.25,3549
45.5,1766
45.75,1520
46,1185
46.25,1113
46.5,1223
46.75,1871
47,3602
47.25,3885
47.5,2354
47.75,1095
48,943
48.25,1181
48.5,775
48.75,648
49,645
49.25,786
49.5,728
49.75,661
50,698
50.25,631
50.5,482
50.75,482
51,464
51.25,472
51.5,441
51.75,428
52,435
52.25,446
52.5,437
52.75,514
53,546
53.25,532
53.5,538
53.75,532
54,640
54.25,593
54.5,692
54.75,799
55,915
55.25,913
55.5,828
55.75,1009
56,1341
56.25,1287
56.5,1083
56.75,1107
57,636
57.25,666
57.5,642
57.75,645
58,558
58.25,489
58.5,489
58.75,650
59,715
59.25,741
59.5,746
59.75,656
60,620
60.25,745
60.5,730
60.75,741
61,800
61.25,847
61.5,879
61.75,832
62,728
62.25,640
62.5,668
62.75,665
63,683
63.25,602
63.5,431
63.75,503
64,505
64.25,508
64.5,605
64.75,721
65,1055
65.25,898
65.5,697
65.75,566
66,487
66.25,456
66.5,392
66.75,414
67,457
67.25,433
67.5,463
67.75,491
68,561
68.25,632
68.5,843
68.75,951
69,1001
69.25,894
69.5,855
69.75,762
70,922
,

File: Fig2_XRD_balcite_9mo.csv
Bragg_angle,Intensity
\circ,a.u.
5,8045
5.25,7605
5.5,7172
5.75,7020
6,6710
6.25,6540
6.5,6447
6.75,6158
7,5868
7.25,5686
7.5,5600
7.75,5413
8,5276
8.25,5294
8.5,5176
8.75,5015
9,4975
9.25,4841
9.5,4841
9.75,4677
10,4557
10.25,4552
10.5,4556
10.75,4282
11,4425
11.25,4369
11.5,4366
11.75,4199
12,4171
12.25,4106
12.5,3880
12.75,3973
13,3712
13.25,3573
13.5,3558
13.75,3511
14,3505
14.25,3367
14.5,3276
14.75,3108
15,3082
15.25,3056
15.5,3014
15.75,2945
16,2705
16.25,2819
16.5,2706
16.75,2597
17,2558
17.25,2597
17.5,2539
17.75,2415
18,2434
18.25,2435
18.5,2344
18.75,2233
19,2249
19.25,2383
19.5,3277
19.75,2627
20,2864
20.25,2186
20.5,2069
20.75,2121
21,1974
21.25,1945
21.5,1922
21.75,2090
22,2058
22.25,2159
22.5,2475
22.75,2051
23,2295
23.25,2045
23.5,2289
23.75,3846
24,17031
24.25,9681
24.5,8056
24.75,1960
25,1683
25.25,1544
25.5,1455
25.75,1509
26,1403
26.25,1368
26.5,1373
26.75,1319
27,1320
27.25,1327
27.5,1378
27.75,2250
28,2815
28.25,2007
28.5,3162
28.75,1885
29,2099
29.25,7214
29.5,1689
29.75,1776
30,1276
30.25,1182
30.5,1094
30.75,1122
31,1390
31.25,1667
31.5,1255
31.75,1203
32,1089
32.25,1087
32.5,1134
32.75,1170
33,1096
33.25,1180
33.5,1318
33.75,1778
34,2905
34.25,4205
34.5,4925
34.75,5787
35,1804
35.25,1273
35.5,1158
35.75,1089
36,916
36.25,823
36.5,753
36.75,761
37,756
37.25,751
37.5,765
37.75,762
38,841
38.25,775
38.5,731
38.75,744
39,772
39.25,1112
39.5,1091
39.75,1583
40,916
40.25,832
40.5,1012
40.75,1003
41,822
41.25,867
41.5,905
41.75,1188
42,2140
42.25,4153
42.5,2350
42.75,1579
43,2328
43.25,2639
43.5,963
43.75,911
44,939
44.25,1351
44.5,1897
44.75,1699
45,2840
45.25,3432
45.5,1321
45.75,1118
46,1002
46.25,965
46.5,1078
46.75,1781
47,4338
47.25,4258
47.5,2252
47.75,1118
48,909
48.25,1448
48.5,783
48.75,658
49,737
49.25,843
49.5,682
49.75,572
50,762
50.25,626
50.5,477
50.75,447
51,447
51.25,429
51.5,447
51.75,450
52,404
52.25,456
52.5,447
52.75,514
53,604
53.25,510
53.5,506
53.75,605
54,629
54.25,627
54.5,678
54.75,884
55,993
55.25,920
55.5,827
55.75,993
56,1473
56.25,1178
56.5,1232
56.75,1056
57,649
57.25,751
57.5,669
57.75,609
58,564
58.25,502
58.5,468
58.75,505
59,554
59.25,699
59.5,754
59.75,661
60,618
60.25,705
60.5,752
60.75,748
61,897
61.25,954
61.5,946
61.75,885
62,776
62.25,770
62.5,707
62.75,676
63,611
63.25,499
63.5,493
63.75,478
64,531
64.25,533
64.5,681
64.75,850
65,1231
65.25,1059
65.5,796
65.75,571
66,495
66.25,429
66.5,466
66.75,418
67,458
67.25,393
67.5,426
67.75,489
68,593
68.25,787
68.5,1022
68.75,1008
69,1061
69.25,885
69.5,839
69.75,881
70,1039
70.25,1037
70.5,831
70.75,892
71,944
71.25,1048
71.5,942
71.75,685
72,554
72.25,572
72.5,571
72.75,588
73,531
73.25,659
73.5,628
73.75,484
74,423
74.25,380
74.5,358
74.75,405
75,379

File: Fig2_XRD_balcite_as_synth.csv
Bragg_angle,Intensity
\circ,a.u.
10,348
10.21,266
10.42,262
10.63,146
10.84,160
11.05,136
11.26,141
11.47,154
11.68,146
11.89,129
12.1,126
12.31,178
12.52,161
12.73,143
12.94,168
13.15,145
13.36,183
13.57,124
13.78,141
13.99,143
14.2,162
14.41,184
14.62,128
14.83,143
15.04,153
15.25,145
15.46,150
15.67,159
15.88,146
16.09,143
16.3,146
16.51,144
16.72,146
16.93,131
17.14,129
17.35,148
17.56,142
17.77,147
17.98,158
18.19,129
18.4,122
18.61,136
18.82,144
19.03,143
19.24,132
19.45,136
19.66,146
19.87,134
20.08,143
20.29,142
20.5,151
20.71,122
20.92,141
21.13,142
21.34,144
21.55,164
21.76,187
21.97,229
22.18,414
22.39,842
22.6,728
22.81,259
23.02,185
23.23,178
23.44,145
23.65,137
23.86,140
24.07,102
24.28,140
24.49,108
24.7,125
24.91,114
25.12,113
25.33,116
25.54,142
25.75,142
25.96,134
26.17,124
26.38,125
26.59,147
26.8,151
27.01,160
27.22,160
27.43,179
27.64,230
27.85,326
28.06,647
28.27,1488
28.48,1707
28.69,659
28.9,269
29.11,201
29.32,139
29.53,144
29.74,148
29.95,141
30.16,115
30.37,91
30.58,105
30.79,102
31,115
31.21,103
31.42,100
31.63,98
31.84,123
32.05,81
32.26,104
32.47,91
32.68,98
32.89,103
33.1,98
33.31,91
33.52,102
33.73,98
33.94,116
34.15,105
34.36,128
34.57,149
34.78,205
34.99,341
35.2,541
35.41,401
35.62,212
35.83,135
36.04,135
36.25,129
36.46,142
36.67,121
36.88,115
37.09,115
37.3,119
37.51,124
37.72,109
37.93,115
38.14,104
38.35,118
38.56,123
38.77,109
38.98,115
39.19,121
39.4,134
39.61,106
39.82,104
40.03,108
40.24,125
40.45,101
40.66,130
40.87,154
41.08,149
41.29,142
41.5,172
41.71,185
41.92,332
42.13,476
42.34,356
42.55,207
42.76,174
42.97,130
43.18,110
43.39,138
43.6,154
43.81,121
44.02,163
44.23,139
44.44,137
44.65,178
44.86,220
45.07,256
45.28,415
45.49,353
45.7,356
45.91,316
46.12,245
46.33,236
46.54,259
46.75,391
46.96,347
47.17,222
47.38,158
47.59,122
47.8,105
48.01,114
48.22,98
48.43,89
48.64,105
48.85,83
49.06,104
49.27,87
49.48,76
49.69,74
49.9,78
50.11,81
50.32,71
50.53,70
50.74,88
50.95,76
51.16,86
51.37,66
51.58,75
51.79,71
52,72
52.21,68
52.42,75
52.63,76
52.84,69
53.05,73
53.26,56
53.47,66
53.68,70
53.89,64
54.1,72
54.31,71
54.52,90
54.73,88
54.94,98
55.15,118
55.36,124
55.57,93
55.78,171
55.99,195
56.2,169
56.41,142
56.62,91
56.83,86
57.04,74
57.25,81
57.46,57
57.67,80
57.88,60
58.09,82
58.3,99
58.51,137
58.72,140
58.93,179
59.14,176
59.35,112
59.56,112
59.77,99
59.98,84
60.19,79
60.4,76
60.61,76
60.82,61
61.03,66
61.24,74
61.45,74
61.66,91
61.87,100
62.08,83
62.29,88
62.5,81
62.71,86
62.92,102
63.13,110
63.34,92
63.55,101
63.76,85
63.97,77
64.18,67
64.39,49
64.6,69
64.81,76
65.02,86
65.23,78
65.44,73
65.65,75
65.86,67
66.07,76
66.28,74
66.49,74
66.7,95
66.91,79
67.12,99
67.33,78
67.54,87
67.75,79
67.96,78
68.17,75
68.38,76
68.59,90
68.8,75
69.01,87
69.22,95
69.43,80
69.64,86
69.85,84
70,112
,

File: Fig2_XRD_SigmaCalcite.csv
Bragg_angle,Intensity
\circ,a.u.
5,329
5.3,347
5.6,304
5.9,318
6.2,347
6.5,336
6.8,313
7.1,228
7.4,258
7.7,251
8,233
8.3,295
8.6,291
8.9,345
9.2,450
9.5,483
9.8,482
10.1,448
10.4,322
10.7,220
11,202
11.3,176
11.6,204
11.9,197
12.2,154
12.5,163
12.8,176
13.1,153
13.4,166
13.7,170
14,179
14.3,144
14.6,161
14.9,146
15.2,158
15.5,134
15.8,145
16.1,127
16.4,138
16.7,140
17,143
17.3,133
17.6,100
17.9,116
18.2,113
18.5,108
18.8,119
19.1,93
19.4,100
19.7,108
20,82
20.3,89
20.6,83
20.9,92
21.2,78
21.5,92
21.8,77
22.1,90
22.4,79
22.7,97
23,721
23.3,95
23.6,66
23.9,93
24.2,83
24.5,73
24.8,84
25.1,77
25.4,83
25.7,71
26,75
26.3,60
26.6,140
26.9,79
27.2,78
27.5,62
27.8,63
28.1,72
28.4,101
28.7,119
29,116
29.3,2706
29.6,635
29.9,111
30.2,89
30.5,88
30.8,81
31.1,95
31.4,247
31.7,71
32,79
32.3,58
32.6,62
32.9,65
33.2,67
33.5,60
33.8,60
34.1,66
34.4,52
34.7,58
35,67
35.3,67
35.6,67
35.9,631
36.2,110
36.5,60
36.8,63
37.1,56
37.4,50
37.7,52
38,59
38.3,49
38.6,57
38.9,79
39.2,156
39.5,1767
39.8,70
40.1,56
40.4,48
40.7,60
41,53
41.3,54
41.6,46
41.9,48
42.2,56
42.5,45
42.8,74
43.1,895
43.4,151
43.7,70
44,59
44.3,68
44.6,53
44.9,49
45.2,58
45.5,46
45.8,52
46.1,55
46.4,62
46.7,55
47,176
47.3,370
47.6,1503
47.9,69
48.2,89
48.5,2237
48.8,137
49.1,68
49.4,54
49.7,52
50,47
50.3,54
50.6,54
50.9,53
51.2,58
51.5,62
51.8,50
52.1,33
52.4,45
52.7,49
53,42
53.3,57
53.6,31
53.9,47
54.2,37
54.5,55
54.8,44
55.1,46
55.4,49
55.7,47
56,38
56.3,50
56.6,371
56.9,59
57.2,97
57.5,516
57.8,55
58.1,155
58.4,38
58.7,35
59,30
59.3,34
59.6,28
59.9,36
60.2,53
60.5,74
60.8,305
61.1,168
61.4,251
61.7,51
62,33
62.3,36
62.6,37
62.9,72
63.2,126
63.5,44
63.8,36
64.1,36
64.4,42
64.7,508
65,57
65.3,47
65.6,392
65.9,59
66.2,45
66.5,30
66.8,43
67.1,34
67.4,40
67.7,31
68,23
68.3,33
68.6,48
68.9,34
69.2,169
69.5,49
69.8,31
70.1,57
70.4,140
70.7,38
71,32
71.3,38
71.6,32
71.9,38
72.2,42
72.5,45
72.8,169
73.1,198
73.4,46
73.7,109
74,31
74.3,40
74.6,26
74.9,32
75.2,37
75.5,35
75.8,27
76.1,39
76.4,60
76.7,39
77,65
77.3,97
77.6,27
77.9,25
78.2,35
78.5,31
78.8,32
79.1,26
79.4,43
79.7,26
80,27