Folder: balcite/Fig S2

File: FigS2_A_XRD_mixture_x5.csv
Bragg_angle,Intensity
\circ,a.u.
5,226
5.24,239
5.48,232
5.72,197
5.96,164
6.2,177
6.44,178
6.68,170
6.92,173
7.16,139
7.4,175
7.64,172
7.88,171
8.12,156
8.36,126
8.6,138
8.84,152
9.08,189
9.32,229
9.56,270
9.8,257
10.04,271
10.28,212
10.52,174
10.76,141
11,112
11.24,119
11.48,133
11.72,125
11.96,114
12.2,120
12.44,105
12.68,108
12.92,126
13.16,104
13.4,114
13.64,118
13.88,105
14.12,129
14.36,109
14.6,115
14.84,113
15.08,109
15.32,105
15.56,114
15.8,99
16.04,117
16.28,128
16.52,91
16.76,92
17,85
17.24,91
17.48,87
17.72,107
17.96,92
18.2,85
18.44,83
18.68,79
18.92,87
19.16,102
19.4,136
19.64,630
19.88,230
20.12,214
20.36,96
20.6,78
20.84,82
21.08,87
21.32,85
21.56,83
21.8,90
22.04,91
22.28,86
22.52,74
22.76,68
23,75
23.24,147
23.48,117
23.72,230
23.96,1809
24.2,1819
24.44,1597
24.68,208
24.92,142
25.16,99
25.4,83
25.64,96
25.88,81
26.12,74
26.36,71
26.6,91
26.84,80
27.08,70
27.32,63
27.56,84
27.8,261
28.04,106
28.28,68
28.52,71
28.76,70
29,80
29.24,94
29.48,535
29.72,230
29.96,86
30.2,67
30.44,76
30.68,82
30.92,68
31.16,76
31.4,70
31.64,90
31.88,61
32.12,74
32.36,60
32.6,73
32.84,86
33.08,80
33.32,109
33.56,130
33.8,377
34.04,539
34.28,1000
34.52,809
34.76,1242
35,171
35.24,86
35.48,71
35.72,63
35.96,79
36.2,107
36.44,72
36.68,64
36.92,54
37.16,52
37.4,52
37.64,47
37.88,84
38.12,61
38.36,63
38.6,60
38.84,69
39.08,62
39.32,84
39.56,471
39.8,191
40.04,72
40.28,94
40.52,138
40.76,109
41,75
41.24,54
41.48,72
41.72,83
41.96,269
42.2,1121
42.44,297
42.68,187
42.92,299
43.16,449
43.4,167
43.64,81
43.88,75
44.12,98
44.36,323
44.6,270
44.84,358
45.08,736
45.32,128
45.56,76
45.8,62
46.04,63
46.28,68
46.52,77
46.76,118
47,524
47.24,312
47.48,96
47.72,174
47.96,53
48.2,78
48.44,75
48.68,252
48.92,78
49.16,121
49.4,81
49.64,70
49.88,99
50.12,50
50.36,56
50.6,45
50.84,39
51.08,37
51.32,42
51.56,41
51.8,44
52.04,43
52.28,54
52.52,34
52.76,60
53,108
53.24,64
53.48,73
53.72,98
53.96,103
54.2,77
54.44,101
54.68,108
54.92,225
55.16,146
55.4,125
55.64,168
55.88,284
56.12,137
56.36,240
56.6,166
56.84,84
57.08,45
57.32,74
57.56,207
57.8,44
58.04,47
58.28,48
58.52,44
58.76,49
59,65
59.24,144
59.48,78
59.72,58
59.96,81
60.2,65
60.44,81
60.68,85
60.92,211
61.16,252
61.4,148
61.64,159
61.88,86
62.12,115
62.36,90
62.6,92
62.84,70
63.08,60
63.32,50
63.56,28
63.8,45
64.04,36
64.28,35
64.52,30
64.76,103
65,72
65.24,30
65.48,47
65.72,117
65.96,64
66.2,26
66.44,48
66.68,35
66.92,40
67.16,41
67.4,41
67.64,45
67.88,58
68.12,106
68.36,237
68.6,178
68.84,180
69.08,92
69.32,62
69.56,101
69.8,209
70.01,151
,

File: FigS2_A_XRD_mixture_x25.csv
Bragg_angle,Intensity
\circ,a.u.
5,242
5.24,297
5.48,225
5.72,234
5.96,212
6.2,186
6.44,190
6.68,201
6.92,172
7.16,167
7.4,163
7.64,190
7.88,164
8.12,199
8.36,180
8.6,168
8.84,174
9.08,198
9.32,277
9.56,271
9.8,263
10.04,262
10.28,233
10.52,205
10.76,145
11,146
11.24,124
11.48,131
11.72,154
11.96,145
12.2,134
12.44,146
12.68,111
12.92,128
13.16,132
13.4,121
13.64,130
13.88,113
14.12,114
14.36,124
14.6,116
14.84,111
15.08,118
15.32,103
15.56,109
15.8,119
16.04,98
16.28,106
16.52,100
16.76,95
17,95
17.24,96
17.48,91
17.72,94
17.96,122
18.2,90
18.44,89
18.68,84
18.92,95
19.16,110
19.4,164
19.64,218
19.88,172
20.12,112
20.36,88
20.6,80
20.84,79
21.08,89
21.32,74
21.56,78
21.8,81
22.04,62
22.28,74
22.52,66
22.76,75
23,160
23.24,164
23.48,123
23.72,288
23.96,2677
24.2,1048
24.44,657
24.68,129
24.92,122
25.16,97
25.4,94
25.64,97
25.88,72
26.12,70
26.36,77
26.6,135
26.84,68
27.08,63
27.32,63
27.56,80
27.8,464
28.04,74
28.28,79
28.52,87
28.76,72
29,86
29.24,245
29.48,6436
29.72,244
29.96,92
30.2,86
30.44,63
30.68,74
30.92,80
31.16,71
31.4,85
31.64,105
31.88,59
32.12,66
32.36,76
32.6,96
32.84,63
33.08,85
33.32,80
33.56,100
33.8,286
34.04,326
34.28,656
34.52,525
34.76,459
35,89
35.24,67
35.48,54
35.72,62
35.96,197
36.2,129
36.44,58
36.68,53
36.92,52
37.16,69
37.4,47
37.64,51
37.88,60
38.12,67
38.36,49
38.6,54
38.84,50
39.08,62
39.32,97
39.56,642
39.8,103
40.04,78
40.28,72
40.52,90
40.76,62
41,54
41.24,60
41.48,65
41.72,66
41.96,291
42.2,530
42.44,166
42.68,166
42.92,240
43.16,430
43.4,231
43.64,81
43.88,74
44.12,108
44.36,270
44.6,225
44.84,341
45.08,371
45.32,69
45.56,48
45.8,70
46.04,61
46.28,55
46.52,67
46.76,200
47,504
47.24,303
47.48,224
47.72,501
47.96,62
48.2,62
48.44,148
48.68,554
48.92,94
49.16,105
49.4,59
49.64,61
49.88,85
50.12,50
50.36,49
50.6,53
50.84,46
51.08,48
51.32,37
51.56,47
51.8,39
52.04,42
52.28,51
52.52,47
52.76,77
53,75
53.24,47
53.48,63
53.72,77
53.96,56
54.2,47
54.44,55
54.68,97
54.92,140
55.16,93
55.4,93
55.64,176
55.88,162
56.12,129
56.36,168
56.6,201
56.84,73
57.08,44
57.32,104
57.56,168
57.8,38
58.04,53
58.28,75
58.52,42
58.76,44
59,51
59.24,100
59.48,58
59.72,56
59.96,58
60.2,40
60.44,56
60.68,175
60.92,253
61.16,183
61.4,205
61.64,147
61.88,60
62.12,75
62.36,66
62.6,67
62.84,59
63.08,105
63.32,81
63.56,29
63.8,35
64.04,41
64.28,41
64.52,40
64.76,214
65,54
65.24,29
65.48,33
65.72,167
65.96,43
66.2,36
66.44,34
66.68,34
66.92,39
67.16,37
67.4,42
67.64,56
67.88,41
68.12,119
68.36,163
68.6,127
68.84,122
69.08,58
69.32,66
69.56,76
69.8,142
70.01,104
,

File: FigS2_A_XRD_mixture_x75.csv
Bragg_angle,Intensity
\circ,a.u.
5,237
5.24,210
5.48,221
5.72,207
5.96,167
6.2,167
6.44,147
6.68,163
6.92,151
7.16,142
7.4,138
7.64,137
7.88,166
8.12,140
8.36,111
8.6,125
8.84,137
9.08,156
9.32,164
9.56,202
9.8,209
10.04,205
10.28,172
10.52,140
10.76,101
11,120
11.24,104
11.48,103
11.72,120
11.96,132
12.2,114
12.44,119
12.68,103
12.92,115
13.16,83
13.4,103
13.64,92
13.88,94
14.12,107
14.36,112
14.6,92
14.84,102
15.08,122
15.32,98
15.56,117
15.8,105
16.04,92
16.28,103
16.52,94
16.76,97
17,88
17.24,96
17.48,89
17.72,78
17.96,92
18.2,91
18.44,67
18.68,84
18.92,81
19.16,124
19.4,197
19.64,791
19.88,268
20.12,259
20.36,89
20.6,95
20.84,75
21.08,98
21.32,67
21.56,97
21.8,115
22.04,98
22.28,73
22.52,88
22.76,77
23,84
23.24,90
23.48,114
23.72,230
23.96,1819
24.2,1879
24.44,1656
24.68,239
24.92,126
25.16,108
25.4,98
25.64,93
25.88,77
26.12,84
26.36,80
26.6,79
26.84,69
27.08,78
27.32,68
27.56,77
27.8,215
28.04,114
28.28,73
28.52,76
28.76,75
29,65
29.24,83
29.48,139
29.72,162
29.96,82
30.2,64
30.44,71
30.68,66
30.92,64
31.16,66
31.4,67
31.64,62
31.88,69
32.12,65
32.36,62
32.6,100
32.84,81
33.08,81
33.32,101
33.56,147
33.8,428
34.04,620
34.28,981
34.52,896
34.76,1527
35,209
35.24,110
35.48,91
35.72,69
35.96,64
36.2,85
36.44,63
36.68,60
36.92,63
37.16,60
37.4,52
37.64,69
37.88,70
38.12,74
38.36,78
38.6,50
38.84,54
39.08,49
39.32,100
39.56,360
39.8,247
40.04,106
40.28,92
40.52,147
40.76,131
41,80
41.24,73
41.48,75
41.72,98
41.96,321
42.2,1436
42.44,315
42.68,224
42.92,362
43.16,486
43.4,139
43.64,86
43.88,96
44.12,124
44.36,336
44.6,274
44.84,352
45.08,725
45.32,120
45.56,71
45.8,61
46.04,58
46.28,69
46.52,57
46.76,120
47,475
47.24,215
47.48,65
47.72,75
47.96,58
48.2,66
48.44,37
48.68,96
48.92,66
49.16,149
49.4,75
49.64,56
49.88,90
50.12,63
50.36,54
50.6,61
50.84,47
51.08,56
51.32,43
51.56,46
51.8,38
52.04,47
52.28,45
52.52,61
52.76,90
53,89
53.24,101
53.48,90
53.72,120
53.96,130
54.2,87
54.44,128
54.68,132
54.92,252
55.16,169
55.4,166
55.64,197
55.88,348
56.12,202
56.36,314
56.6,173
56.84,73
57.08,47
57.32,68
57.56,80
57.8,47
58.04,57
58.28,55
58.52,52
58.76,50
59,52
59.24,148
59.48,87
59.72,58
59.96,88
60.2,62
60.44,57
60.68,99
60.92,202
61.16,267
61.4,148
61.64,131
61.88,88
62.12,119
62.36,100
62.6,111
62.84,95
63.08,53
63.32,45
63.56,42
63.8,49
64.04,50
64.28,43
64.52,48
64.76,46
65,58
65.24,39
65.48,43
65.72,51
65.96,53
66.2,46
66.44,44
66.68,47
66.92,38
67.16,38
67.4,56
67.64,46
67.88,55
68.12,114
68.36,273
68.6,180
68.84,171
69.08,104
69.32,93
69.56,87
69.8,206
70.01,161
,

File: FigS2_A_XRD_mixture_x125.csv
Bragg_angle,Intensity
\circ,a.u.
5,264
5.24,249
5.48,223
5.72,260
5.96,204
6.2,267
6.44,222
6.68,192
6.92,188
7.16,180
7.4,171
7.64,184
7.88,169
8.12,162
8.36,155
8.6,167
8.84,206
9.08,258
9.32,288
9.56,289
9.8,323
10.04,291
10.28,251
10.52,209
10.76,154
11,156
11.24,108
11.48,122
11.72,140
11.96,136
12.2,115
12.44,139
12.68,138
12.92,103
13.16,133
13.4,135
13.64,132
13.88,115
14.12,121
14.36,119
14.6,136
14.84,132
15.08,122
15.32,111
15.56,124
15.8,119
16.04,123
16.28,108
16.52,119
16.76,99
17,92
17.24,101
17.48,101
17.72,91
17.96,105
18.2,91
18.44,90
18.68,88
18.92,77
19.16,85
19.4,136
19.64,86
19.88,116
20.12,100
20.36,86
20.6,92
20.84,69
21.08,70
21.32,69
21.56,91
21.8,76
22.04,68
22.28,79
22.52,77
22.76,90
23,293
23.24,100
23.48,95
23.72,191
23.96,1310
24.2,522
24.44,222
24.68,77
24.92,72
25.16,67
25.4,64
25.64,65
25.88,72
26.12,64
26.36,76
26.6,109
26.84,62
27.08,56
27.32,67
27.56,77
27.8,219
28.04,69
28.28,64
28.52,73
28.76,84
29,87
29.24,572
29.48,7254
29.72,151
29.96,93
30.2,77
30.44,77
30.68,80
30.92,69
31.16,81
31.4,158
31.64,78
31.88,49
32.12,64
32.36,65
32.6,69
32.84,57
33.08,47
33.32,62
33.56,89
33.8,160
34.04,212
34.28,291
34.52,290
34.76,137
35,63
35.24,51
35.48,76
35.72,70
35.96,836
36.2,85
36.44,53
36.68,51
36.92,50
37.16,42
37.4,54
37.64,44
37.88,57
38.12,79
38.36,51
38.6,58
38.84,50
39.08,54
39.32,202
39.56,761
39.8,69
40.04,64
40.28,50
40.52,59
40.76,45
41,40
41.24,51
41.48,48
41.72,66
41.96,284
42.2,184
42.44,94
42.68,106
42.92,165
43.16,1188
43.4,109
43.64,50
43.88,55
44.12,91
44.36,132
44.6,130
44.84,250
45.08,134
45.32,66
45.56,43
45.8,43
46.04,51
46.28,53
46.52,70
46.76,181
47,291
47.24,270
47.48,900
47.72,269
47.96,51
48.2,59
48.44,386
48.68,690
48.92,97
49.16,66
49.4,59
49.64,58
49.88,50
50.12,49
50.36,43
50.6,48
50.84,42
51.08,40
51.32,37
51.56,29
51.8,33
52.04,42
52.28,32
52.52,43
52.76,47
53,54
53.24,37
53.48,50
53.72,43
53.96,41
54.2,45
54.44,46
54.68,84
54.92,79
55.16,64
55.4,58
55.64,91
55.88,99
56.12,62
56.36,91
56.6,319
56.84,57
57.08,46
57.32,175
57.56,327
57.8,36
58.04,48
58.28,60
58.52,41
58.76,38
59,44
59.24,52
59.48,39
59.72,43
59.96,41
60.2,39
60.44,49
60.68,515
60.92,222
61.16,182
61.4,235
61.64,66
61.88,42
62.12,56
62.36,40
62.6,43
62.84,41
63.08,144
63.32,50
63.56,39
63.8,24
64.04,30
64.28,29
64.52,60
64.76,177
65,46
65.24,32
65.48,57
65.72,89
65.96,34
66.2,23
66.44,29
66.68,24
66.92,28
67.16,30
67.4,27
67.64,41
67.88,37
68.12,95
68.36,73
68.6,80
68.84,76
69.08,38
69.32,68
69.56,78
69.8,76
70.01,67
,

File: FigS2_A_XRD_mixture_x375.csv
Bragg_angle,Intensity
\circ,a.u.
5,258
5.24,307
5.48,257
5.72,229
5.96,201
6.2,195
6.44,226
6.68,226
6.92,195
7.16,199
7.4,203
7.64,182
7.88,186
8.12,168
8.36,193
8.6,167
8.84,196
9.08,265
9.32,268
9.56,342
9.8,324
10.04,280
10.28,264
10.52,211
10.76,165
11,150
11.24,137
11.48,132
11.72,136
11.96,165
12.2,140
12.44,124
12.68,144
12.92,151
13.16,127
13.4,119
13.64,130
13.88,118
14.12,117
14.36,116
14.6,134
14.84,144
15.08,145
15.32,130
15.56,101
15.8,123
16.04,112
16.28,118
16.52,108
16.76,104
17,101
17.24,101
17.48,92
17.72,96
17.96,105
18.2,94
18.44,90
18.68,103
18.92,92
19.16,125
19.4,267
19.64,263
19.88,210
20.12,115
20.36,97
20.6,71
20.84,107
21.08,72
21.32,84
21.56,110
21.8,108
22.04,93
22.28,77
22.52,82
22.76,86
23,104
23.24,143
23.48,145
23.72,417
23.96,4075
24.2,1499
24.44,822
24.68,174
24.92,91
25.16,103
25.4,84
25.64,87
25.88,79
26.12,80
26.36,77
26.6,95
26.84,90
27.08,73
27.32,66
27.56,97
27.8,644
28.04,83
28.28,52
28.52,84
28.76,68
29,82
29.24,174
29.48,2200
29.72,183
29.96,91
30.2,77
30.44,83
30.68,81
30.92,56
31.16,90
31.4,82
31.64,61
31.88,54
32.12,53
32.36,103
32.6,101
32.84,68
33.08,66
33.32,88
33.56,156
33.8,426
34.04,557
34.28,785
34.52,787
34.76,518
35,111
35.24,84
35.48,54
35.72,84
35.96,139
36.2,88
36.44,66
36.68,54
36.92,58
37.16,61
37.4,53
37.64,60
37.88,65
38.12,68
38.36,64
38.6,65
38.84,54
39.08,83
39.32,119
39.56,546
39.8,104
40.04,82
40.28,79
40.52,127
40.76,75
41,64
41.24,58
41.48,84
41.72,87
41.96,498
42.2,747
42.44,192
42.68,197
42.92,343
43.16,450
43.4,158
43.64,77
43.88,92
44.12,139
44.36,313
44.6,268
44.84,557
45.08,450
45.32,108
45.56,61
45.8,73
46.04,62
46.28,69
46.52,69
46.76,292
47,628
47.24,230
47.48,201
47.72,227
47.96,62
48.2,81
48.44,111
48.68,292
48.92,132
49.16,102
49.4,52
49.64,65
49.88,101
50.12,61
50.36,51
50.6,42
50.84,45
51.08,30
51.32,52
51.56,43
51.8,43
52.04,44
52.28,45
52.52,55
52.76,83
53,76
53.24,71
53.48,66
53.72,108
53.96,78
54.2,79
54.44,106
54.68,144
54.92,214
55.16,110
55.4,128
55.64,200
55.88,211
56.12,154
56.36,218
56.6,145
56.84,78
57.08,55
57.32,115
57.56,135
57.8,57
58.04,61
58.28,70
58.52,61
58.76,59
59,82
59.24,122
59.48,71
59.72,64
59.96,75
60.2,52
60.44,63
60.68,159
60.92,242
61.16,222
61.4,202
61.64,125
61.88,79
62.12,105
62.36,71
62.6,87
62.84,56
63.08,82
63.32,45
63.56,46
63.8,23
64.04,44
64.28,43
64.52,37
64.76,128
65,48
65.24,43
65.48,33
65.72,75
65.96,39
66.2,46
66.44,37
66.68,32
66.92,40
67.16,41
67.4,44
67.64,45
67.88,63
68.12,169
68.36,205
68.6,198
68.84,153
69.08,76
69.32,92
69.56,135
69.8,191
70.01,148
,

File: FigS2_A_XRD_mixture_x0625.csv
Bragg_angle,Intensity
\circ,a.u.
5,241
5.24,235
5.48,242
5.72,207
5.96,205
6.2,249
6.44,260
6.68,201
6.92,223
7.16,188
7.4,182
7.64,163
7.88,193
8.12,186
8.36,169
8.6,219
8.84,266
9.08,308
9.32,341
9.56,369
9.8,379
10.04,374
10.28,303
10.52,239
10.76,175
11,173
11.24,191
11.48,124
11.72,136
11.96,143
12.2,148
12.44,136
12.68,133
12.92,146
13.16,115
13.4,132
13.64,136
13.88,143
14.12,126
14.36,123
14.6,116
14.84,136
15.08,131
15.32,105
15.56,105
15.8,95
16.04,111
16.28,134
16.52,111
16.76,110
17,104
17.24,101
17.48,91
17.72,82
17.96,92
18.2,82
18.44,88
18.68,88
18.92,99
19.16,81
19.4,102
19.64,110
19.88,99
20.12,82
20.36,87
20.6,75
20.84,93
21.08,65
21.32,85
21.56,69
21.8,64
22.04,70
22.28,70
22.52,74
22.76,75
23,276
23.24,141
23.48,87
23.72,122
23.96,812
24.2,310
24.44,182
24.68,75
24.92,71
25.16,68
25.4,71
25.64,59
25.88,70
26.12,60
26.36,71
26.6,134
26.84,61
27.08,81
27.32,69
27.56,63
27.8,158
28.04,54
28.28,73
28.52,110
28.76,92
29,119
29.24,536
29.48,10326
29.72,187
29.96,86
30.2,74
30.44,91
30.68,79
30.92,89
31.16,71
31.4,122
31.64,82
31.88,68
32.12,63
32.36,65
32.6,77
32.84,73
33.08,65
33.32,61
33.56,64
33.8,101
34.04,111
34.28,192
34.52,184
34.76,123
35,46
35.24,46
35.48,64
35.72,66
35.96,495
36.2,101
36.44,43
36.68,47
36.92,53
37.16,41
37.4,53
37.64,48
37.88,47
38.12,39
38.36,49
38.6,54
38.84,57
39.08,53
39.32,220
39.56,976
39.8,61
40.04,54
40.28,57
40.52,63
40.76,40
41,44
41.24,59
41.48,54
41.72,51
41.96,133
42.2,156
42.44,94
42.68,86
42.92,110
43.16,909
43.4,206
43.64,66
43.88,66
44.12,63
44.36,101
44.6,73
44.84,121
45.08,102
45.32,46
45.56,38
45.8,51
46.04,55
46.28,41
46.52,55
46.76,114
47,184
47.24,332
47.48,790
47.72,764
47.96,57
48.2,65
48.44,296
48.68,1021
48.92,81
49.16,70
49.4,59
49.64,54
49.88,51
50.12,41
50.36,46
50.6,45
50.84,42
51.08,40
51.32,26
51.56,38
51.8,41
52.04,33
52.28,40
52.52,40
52.76,40
53,54
53.24,45
53.48,25
53.72,42
53.96,31
54.2,28
54.44,48
54.68,47
54.92,76
55.16,38
55.4,54
55.64,56
55.88,61
56.12,49
56.36,99
56.6,341
56.84,64
57.08,40
57.32,110
57.56,354
57.8,42
58.04,65
58.28,93
58.52,41
58.76,31
59,41
59.24,44
59.48,39
59.72,41
59.96,29
60.2,33
60.44,57
60.68,467
60.92,265
61.16,140
61.4,321
61.64,106
61.88,51
62.12,43
62.36,43
62.6,34
62.84,36
63.08,190
63.32,89
63.56,34
63.8,27
64.04,23
64.28,41
64.52,53
64.76,268
65,55
65.24,31
65.48,47
65.72,138
65.96,36
66.2,28
66.44,30
66.68,31
66.92,36
67.16,29
67.4,37
67.64,34
67.88,41
68.12,52
68.36,66
68.6,66
68.84,57
69.08,44
69.32,58
69.56,39
69.8,44
70.01,56
,

File: FigS2_A_XRD_mixture_x625.csv
Bragg_angle,Intensity
\circ,a.u.
5,281
5.24,303
5.48,276
5.72,251
5.96,232
6.2,194
6.44,184
6.68,184
6.92,172
7.16,159
7.4,177
7.64,194
7.88,204
8.12,174
8.36,158
8.6,170
8.84,200
9.08,242
9.32,316
9.56,317
9.8,316
10.04,321
10.28,265
10.52,203
10.76,145
11,141
11.24,164
11.48,142
11.72,159
11.96,157
12.2,152
12.44,148
12.68,141
12.92,149
13.16,129
13.4,119
13.64,127
13.88,140
14.12,136
14.36,111
14.6,132
14.84,155
15.08,129
15.32,127
15.56,113
15.8,131
16.04,105
16.28,103
16.52,124
16.76,112
17,113
17.24,104
17.48,108
17.72,96
17.96,91
18.2,92
18.44,95
18.68,98
18.92,101
19.16,129
19.4,332
19.64,377
19.88,263
20.12,119
20.36,107
20.6,92
20.84,98
21.08,76
21.32,82
21.56,114
21.8,90
22.04,92
22.28,82
22.52,81
22.76,82
23,89
23.24,114
23.48,137
23.72,403
23.96,4579
24.2,1727
24.44,915
24.68,170
24.92,142
25.16,106
25.4,94
25.64,76
25.88,85
26.12,74
26.36,79
26.6,102
26.84,83
27.08,78
27.32,81
27.56,85
27.8,588
28.04,91
28.28,60
28.52,57
28.76,76
29,56
29.24,102
29.48,789
29.72,136
29.96,83
30.2,79
30.44,75
30.68,67
30.92,61
31.16,80
31.4,58
31.64,71
31.88,55
32.12,72
32.36,79
32.6,106
32.84,69
33.08,83
33.32,131
33.56,172
33.8,519
34.04,593
34.28,883
34.52,958
34.76,781
35,124
35.24,70
35.48,86
35.72,73
35.96,91
36.2,71
36.44,66
36.68,69
36.92,66
37.16,61
37.4,64
37.64,70
37.88,75
38.12,50
38.36,48
38.6,72
38.84,69
39.08,76
39.32,102
39.56,489
39.8,135
40.04,94
40.28,97
40.52,167
40.76,110
41,62
41.24,66
41.48,80
41.72,125
41.96,583
42.2,914
42.44,270
42.68,222
42.92,415
43.16,343
43.4,120
43.64,85
43.88,97
44.12,155
44.36,385
44.6,288
44.84,574
45.08,477
45.32,88
45.56,50
45.8,71
46.04,61
46.28,73
46.52,71
46.76,271
47,620
47.24,188
47.48,108
47.72,108
47.96,52
48.2,67
48.44,73
48.68,156
48.92,122
49.16,133
49.4,80
49.64,89
49.88,106
50.12,72
50.36,57
50.6,45
50.84,35
51.08,50
51.32,50
51.56,50
51.8,42
52.04,45
52.28,63
52.52,57
52.76,103
53,81
53.24,104
53.48,64
53.72,133
53.96,85
54.2,84
54.44,99
54.68,163
54.92,269
55.16,139
55.4,147
55.64,240
55.88,277
56.12,168
56.36,269
56.6,141
56.84,59
57.08,63
57.32,108
57.56,70
57.8,49
58.04,56
58.28,59
58.52,60
58.76,45
59,78
59.24,146
59.48,71
59.72,63
59.96,106
60.2,73
60.44,60
60.68,139
60.92,248
61.16,245
61.4,169
61.64,113
61.88,94
62.12,98
62.36,98
62.6,102
62.84,79
63.08,68
63.32,36
63.56,43
63.8,49
64.04,42
64.28,44
64.52,36
64.76,69
65,53
65.24,46
65.48,49
65.72,48
65.96,46
66.2,34
66.44,37
66.68,48
66.92,58
67.16,42
67.4,51
67.64,43
67.88,69
68.12,202
68.36,242
68.6,187
68.84,139
69.08,72
69.32,72
69.56,114
69.8,221
70.01,156
,

File: FigS2_A_XRD_mixture_x875.csv
Bragg_angle,Intensity
\circ,a.u.
5,207
5.24,238
5.48,227
5.72,215
5.96,178
6.2,175
6.44,146
6.68,173
6.92,122
7.16,136
7.4,154
7.64,180
7.88,151
8.12,146
8.36,128
8.6,128
8.84,113
9.08,168
9.32,206
9.56,209
9.8,240
10.04,238
10.28,200
10.52,173
10.76,121
11,114
11.24,105
11.48,122
11.72,98
11.96,119
12.2,118
12.44,136
12.68,109
12.92,122
13.16,105
13.4,111
13.64,108
13.88,107
14.12,122
14.36,101
14.6,122
14.84,118
15.08,99
15.32,105
15.56,109
15.8,106
16.04,103
16.28,86
16.52,86
16.76,90
17,85
17.24,88
17.48,81
17.72,100
17.96,102
18.2,100
18.44,100
18.68,75
18.92,87
19.16,86
19.4,169
19.64,729
19.88,242
20.12,232
20.36,98
20.6,94
20.84,85
21.08,86
21.32,78
21.56,92
21.8,102
22.04,84
22.28,90
22.52,78
22.76,66
23,92
23.24,97
23.48,128
23.72,280
23.96,1962
24.2,1872
24.44,1653
24.68,213
24.92,113
25.16,117
25.4,85
25.64,92
25.88,76
26.12,82
26.36,75
26.6,68
26.84,79
27.08,76
27.32,68
27.56,94
27.8,253
28.04,101
28.28,68
28.52,77
28.76,71
29,60
29.24,71
29.48,235
29.72,183
29.96,87
30.2,68
30.44,63
30.68,71
30.92,77
31.16,63
31.4,87
31.64,63
31.88,57
32.12,72
32.36,69
32.6,87
32.84,82
33.08,80
33.32,111
33.56,121
33.8,376
34.04,483
34.28,1011
34.52,862
34.76,1396
35,165
35.24,107
35.48,72
35.72,72
35.96,67
36.2,90
36.44,59
36.68,61
36.92,56
37.16,50
37.4,62
37.64,61
37.88,80
38.12,89
38.36,60
38.6,51
38.84,54
39.08,69
39.32,88
39.56,378
39.8,195
40.04,96
40.28,92
40.52,134
40.76,103
41,64
41.24,74
41.48,80
41.72,97
41.96,298
42.2,1250
42.44,310
42.68,240
42.92,322
43.16,420
43.4,191
43.64,93
43.88,73
44.12,112
44.36,370
44.6,296
44.84,365
45.08,692
45.32,131
45.56,87
45.8,53
46.04,70
46.28,45
46.52,61
46.76,115
47,518
47.24,239
47.48,66
47.72,101
47.96,63
48.2,66
48.44,49
48.68,94
48.92,86
49.16,153
49.4,73
49.64,84
49.88,93
50.12,78
50.36,56
50.6,44
50.84,37
51.08,39
51.32,47
51.56,41
51.8,49
52.04,48
52.28,51
52.52,57
52.76,93
53,110
53.24,72
53.48,75
53.72,120
53.96,96
54.2,91
54.44,106
54.68,128
54.92,273
55.16,194
55.4,143
55.64,193
55.88,320
56.12,167
56.36,276
56.6,180
56.84,83
57.08,59
57.32,71
57.56,82
57.8,66
58.04,38
58.28,51
58.52,42
58.76,60
59,49
59.24,162
59.48,92
59.72,53
59.96,115
60.2,54
60.44,63
60.68,93
60.92,191
61.16,260
61.4,148
61.64,151
61.88,102
62.12,117
62.36,92
62.6,118
62.84,71
63.08,51
63.32,55
63.56,40
63.8,47
64.04,35
64.28,37
64.52,38
64.76,62
65,57
65.24,50
65.48,38
65.72,62
65.96,54
66.2,32
66.44,33
66.68,49
66.92,42
67.16,32
67.4,47
67.64,46
67.88,56
68.12,124
68.36,258
68.6,157
68.84,180
69.08,78
69.32,87
69.56,91
69.8,186
70.01,170
,

File: FigS2_A_XRD_mixture_x935.csv
Bragg_angle,Intensity
\circ,a.u.
5,241
5.24,193
5.48,225
5.72,198
5.96,161
6.2,142
6.44,138
6.68,119
6.92,139
7.16,140
7.4,143
7.64,155
7.88,162
8.12,139
8.36,113
8.6,112
8.84,122
9.08,151
9.32,175
9.56,262
9.8,212
10.04,243
10.28,214
10.52,180
10.76,119
11,130
11.24,107
11.48,107
11.72,111
11.96,106
12.2,109
12.44,102
12.68,124
12.92,127
13.16,112
13.4,93
13.64,116
13.88,98
14.12,98
14.36,100
14.6,115
14.84,95
15.08,97
15.32,122
15.56,105
15.8,95
16.04,107
16.28,99
16.52,92
16.76,85
17,98
17.24,77
17.48,89
17.72,99
17.96,75
18.2,91
18.44,80
18.68,71
18.92,79
19.16,98
19.4,196
19.64,1031
19.88,310
20.12,351
20.36,89
20.6,104
20.84,81
21.08,80
21.32,80
21.56,109
21.8,88
22.04,90
22.28,75
22.52,76
22.76,76
23,87
23.24,90
23.48,98
23.72,181
23.96,1263
24.2,1958
24.44,1558
24.68,236
24.92,109
25.16,97
25.4,92
25.64,68
25.88,87
26.12,73
26.36,81
26.6,74
26.84,75
27.08,74
27.32,71
27.56,70
27.8,158
28.04,107
28.28,71
28.52,78
28.76,52
29,78
29.24,73
29.48,92
29.72,135
29.96,78
30.2,61
30.44,68
30.68,73
30.92,68
31.16,72
31.4,74
31.64,56
31.88,54
32.12,48
32.36,66
32.6,74
32.84,88
33.08,73
33.32,108
33.56,162
33.8,384
34.04,641
34.28,893
34.52,821
34.76,1870
35,255
35.24,91
35.48,70
35.72,86
35.96,72
36.2,76
36.44,57
36.68,69
36.92,67
37.16,56
37.4,65
37.64,56
37.88,78
38.12,84
38.36,79
38.6,61
38.84,61
39.08,76
39.32,79
39.56,328
39.8,312
40.04,123
40.28,126
40.52,157
40.76,138
41,81
41.24,63
41.48,74
41.72,107
41.96,222
42.2,1466
42.44,404
42.68,215
42.92,293
43.16,509
43.4,161
43.64,93
43.88,70
44.12,91
44.36,295
44.6,257
44.84,289
45.08,637
45.32,112
45.56,65
45.8,66
46.04,58
46.28,78
46.52,65
46.76,87
47,381
47.24,183
47.48,58
47.72,59
47.96,54
48.2,85
48.44,54
48.68,74
48.92,79
49.16,153
49.4,64
49.64,69
49.88,104
50.12,62
50.36,42
50.6,36
50.84,36
51.08,40
51.32,54
51.56,48
51.8,41
52.04,43
52.28,40
52.52,62
52.76,108
53,102
53.24,79
53.48,76
53.72,144
53.96,132
54.2,92
54.44,121
54.68,139
54.92,293
55.16,184
55.4,155
55.64,210
55.88,373
56.12,202
56.36,269
56.6,216
56.84,83
57.08,50
57.32,55
57.56,64
57.8,56
58.04,56
58.28,47
58.52,50
58.76,51
59,45
59.24,116
59.48,82
59.72,55
59.96,69
60.2,63
60.44,65
60.68,103
60.92,227
61.16,247
61.4,149
61.64,126
61.88,88
62.12,111
62.36,106
62.6,116
62.84,106
63.08,63
63.32,51
63.56,35
63.8,46
64.04,53
64.28,45
64.52,39
64.76,36
65,39
65.24,34
65.48,46
65.72,42
65.96,33
66.2,46
66.44,35
66.68,42
66.92,50
67.16,33
67.4,42
67.64,40
67.88,50
68.12,101
68.36,238
68.6,152
68.84,146
69.08,95
69.32,77
69.56,90
69.8,186
70.01,182
,

File: FigS2_B_XRD_calcite_100mM_BaCl2.csv
Bragg_angle,Intensity
\circ,a.u.
9.96,427
10.21,399
10.46,424
10.71,368
10.96,388
11.21,354
11.46,374
11.71,378
11.96,361
12.21,383
12.46,362
12.71,352
12.96,400
13.21,367
13.46,352
13.71,339
13.96,393
14.21,345
14.46,320
14.71,319
14.96,295
15.21,340
15.46,298
15.71,295
15.96,301
16.21,275
16.46,286
16.71,239
16.96,282
17.21,246
17.46,294
17.71,278
17.96,248
18.21,267
18.46,247
18.71,239
18.96,221
19.21,252
19.46,455
19.71,303
19.96,338
20.21,258
20.46,254
20.71,246
20.96,218
21.21,215
21.46,259
21.71,274
21.96,243
22.21,198
22.46,219
22.71,209
22.96,408
23.21,270
23.46,285
23.71,544
23.96,4191
24.21,1379
24.46,2643
24.71,346
24.96,239
25.21,228
25.46,214
25.71,218
25.96,207
26.21,179
26.46,249
26.71,186
26.96,200
27.21,170
27.46,217
27.71,515
27.96,487
28.21,197
28.46,219
28.71,202
28.96,207
29.21,625
29.46,6379
29.71,384
29.96,232
30.21,185
30.46,217
30.71,187
30.96,194
31.21,168
31.46,363
31.71,151
31.96,166
32.21,172
32.46,217
32.71,209
32.96,177
33.21,180
33.46,234
33.71,327
33.96,793
34.21,1007
34.46,798
34.71,894
34.96,759
35.21,173
35.46,175
35.71,169
35.96,922
36.21,163
36.46,130
36.71,139
36.96,135
37.21,141
37.46,150
37.71,160
37.96,164
38.21,162
38.46,171
38.71,148
38.96,147
39.21,174
39.46,1186
39.71,399
39.96,195
40.21,155
40.46,168
40.71,184
40.96,180
41.21,139
41.46,137
41.71,176
41.96,325
42.21,1202
42.46,498
42.71,220
42.96,303
43.21,1295
43.46,372
43.71,153
43.96,164
44.21,279
44.46,511
44.71,266
44.96,478
45.21,833
45.46,216
45.71,154
45.96,135
46.21,154
46.46,158
46.71,332
46.96,720
47.21,830
47.46,1149
47.71,419
47.96,152
48.21,142
48.46,849
48.71,397
48.96,170
49.21,227
49.46,150
49.71,112
49.96,164
50.21,169
50.46,115
50.71,121
50.96,112
51.21,111
51.46,122
51.71,95
51.96,106
52.21,104
52.46,126
52.71,106
52.96,158
53.21,120
53.46,113
53.71,100
53.96,142
54.21,159
54.46,124
54.71,187
54.96,289
55.21,222
55.46,154
55.71,190
55.96,247
56.21,274
56.46,223
56.71,434
56.96,178
57.21,130
57.46,530
57.71,121
57.96,117
58.21,140
58.46,110
58.71,88
58.96,108
59.21,127
59.46,200
59.71,114
59.96,127
60.21,137
60.46,134
60.71,482
60.96,292
61.21,315
61.46,319
61.71,182
61.96,165
62.21,142
62.46,146
62.71,116
62.96,152
63.21,172
63.46,110
63.71,94
63.96,92
64.21,93
64.46,94
64.71,326
64.96,112
65.21,78
65.46,95
65.71,179
65.96,85
66.21,77
66.46,98
66.71,80
66.96,107
67.21,91
67.46,99
67.71,83
67.96,104
68.21,171
68.46,261
68.71,298
68.96,242
69.21,238
69.46,165
69.71,148
69.96,225